Folder: microplasticLab/Raman

Note: README.md
# microplasticLab

[the protocol](https://harkanatta.github.io/microplasticLab/) on github pages

File: Nitrocellulose.txt
151.973	199.906
160.337	186.302
168.689	173.45
177.03	168.464
185.36	170.637
193.679	180.707
201.987	179.985
210.283	176.85
218.569	173.186
226.844	168.897
235.108	165.875
243.36	151.613
251.602	136.323
259.832	137.74
268.052	131.208
276.261	130.944
284.459	125.742
292.646	124.554
300.822	121.969
308.988	117.929
317.142	124.496
325.286	117.037
333.42	121.764
341.542	117.444
349.654	113.337
357.754	109.456
365.845	108.698
373.925	105.438
381.993	110.176
390.052	116.795
398.1	119.004
406.137	126.96
414.164	108.885
422.18	113.536
430.186	111.692
438.181	107.094
446.166	107.643
454.14	103.349
462.104	103.041
470.058	105.151
478.001	104.392
485.934	97.6502
493.856	98.5368
501.768	96.9861
509.669	97.6464
517.561	93.884
525.443	103.044
533.313	105.829
541.174	100.909
549.025	110.308
556.865	108.483
564.695	105.465
572.515	100.702
580.325	98.0399
588.125	103.312
595.915	105.747
603.695	101.71
611.464	107.2
619.224	108.975
626.973	108.876
634.713	111.223
642.442	97.4088
650.162	95.4039
657.872	100.657
665.572	97.365
673.262	93.671
680.942	97.9586
688.611	99.583
696.272	99.5514
703.922	93.3396
711.564	87.2411
719.194	86.6195
726.815	84.6611
734.427	87.3119
742.028	88.6469
749.62	87.0493
757.203	84.8066
764.776	80.3384
772.338	81.0025
779.892	78.3644
787.435	81.5199
794.97	83.3087
802.494	77.8726
810.009	85.5763
817.515	88.4242
825.011	96.2727
832.497	110.613
839.974	128.403
847.442	131.921
854.9	133.833
862.349	122.459
869.788	112.989
877.217	104.484
884.637	92.3445
892.049	93.5964
899.451	98.1167
906.842	97.4294
914.226	93.0268
921.599	93.1153
928.964	88.7029
936.319	79.0089
943.665	82.4257
951.002	81.0885
958.329	75.4842
965.648	77.4134
972.957	82.9154
980.257	90.1523
987.548	85.8813
994.829	91.7531
1002.1	88.0913
1009.37	81.7161
1016.62	84.4941
1023.87	88.3551
1031.1	85.8123
1038.33	86.793
1045.55	89.1465
1052.76	86.4821
1059.96	92.5763
1067.15	94.7754
1074.33	96.3952
1081.5	89.9793
1088.67	93.8678
1095.83	96.4533
1102.97	99.3602
1110.11	99.372
1117.24	104.37
1124.36	102.792
1131.47	95.2017
1138.57	85.5152
1145.67	94.3498
1152.75	95.593
1159.83	91.1846
1166.9	78.9099
1173.96	79.1925
1181.01	79.6882
1188.05	74.5282
1195.08	75.8047
1202.11	77.1495
1209.12	74.3244
1216.13	73.9765
1223.13	77.1158
1230.12	78.4969
1237.1	80.9028
1244.07	88.2346
1251.04	91.3459
1257.99	90.1365
1264.94	102.128
1271.88	129.454
1278.81	146.729
1285.73	145.823
1292.64	114.176
1299.55	96.6556
1306.44	85.09
1313.33	96.8835
1320.21	94.6891
1327.08	94.7605
1333.95	97.1291
1340.8	101.253
1347.65	98.4139
1354.49	102.16
1361.32	114.238
1368.14	116.211
1374.95	110.784
1381.76	109.437
1388.55	98.7732
1395.34	90.6404
1402.12	93.3564
1408.89	93.6514
1415.66	89.1665
1422.41	87.9456
1429.16	81.4077
1435.9	84.8509
1442.63	84.4672
1449.35	95.9581
1456.07	85.6096
1462.78	89.372
1469.48	90.6435
1476.17	85.0692
1482.85	84.2283
1489.53	83.6319
1496.19	86.5537
1502.85	82.2792
1509.5	81.2613
1516.15	82.6361
1522.78	78.4754
1529.41	79.5461
1536.03	90.9924
1542.64	76.9804
1549.24	71.5784
1555.84	78.7273
1562.42	78.9225
1569.01	72.2083
1575.58	72.6517
1582.14	77.0966
1588.7	76.451
1595.25	79.7268
1601.79	76.354
1608.32	77.6239
1614.85	77.5037
1621.36	78.9914
1627.87	80.1688
1634.38	76.8303
1640.87	84.5718
1647.36	83.0508
1653.84	87.0723
1660.31	83.9672
1666.77	80.2911
1673.23	75.6624
1679.68	75.192
1686.12	75.5786
1692.55	67.118
1698.98	68.7878
1705.39	69.5397
1711.81	66.7176
1718.21	67.346
1724.6	67.9149
1730.99	69.1921
1737.37	70.6983
1743.75	68.6149
1750.11	67.1563
1756.47	65.4912
1762.82	63.4912
1769.16	62.8162
1775.5	64.1288
1781.83	64.112
1788.15	62.653
1794.46	58.737
1800.77	66.1172
1807.07	62.2662
1813.36	60.0589
1819.65	65.4256
1825.92	65.0557
1832.19	62.3498
1838.46	47.0256
1844.71	58.8487
1850.96	63.6459
1857.2	57.7435
1863.43	58.889
1869.66	63.4561
1875.88	55.1564
1882.09	55.6492
1888.29	60.1268
1894.49	56.6009
1900.68	56.9347
1906.86	58.2373
1913.04	60.0365
1919.21	54.2932
1925.37	57.6648
1931.53	54.6011
1937.67	55.3802
1943.81	50.7954
1949.95	52.2339
1956.07	53.8919
1962.19	55.4555
1968.31	53.2723
1974.41	54.0635
1980.51	54.6397
1986.6	49.6417
1992.68	46.0501
1998.76	53.2508

File: p-propylene.txt
151.973	815.663
160.337	777.789
168.689	791.21
177.03	778.004
185.36	772.22
193.679	759.64
201.987	732.088
210.283	738.651
218.569	738.71
226.844	733.632
235.108	726.28
243.36	709.618
251.602	719.407
259.832	742.373
268.052	715.989
276.261	698.969
284.459	694.459
292.646	680.106
300.822	671.793
308.988	685.211
317.142	684.824
325.286	670.642
333.42	658.765
341.542	648.862
349.654	654.993
357.754	648.512
365.845	649.357
373.925	635.279
381.993	649.312
390.052	676.912
398.1	712.096
406.137	666.884
414.164	630.693
422.18	616.499
430.186	617.506
438.181	628.581
446.166	625.442
454.14	619.973
462.104	611.169
470.058	609.382
478.001	611.258
485.934	602.13
493.856	583.369
501.768	591.267
509.669	591.43
517.561	599.729
525.443	612.412
533.313	578.083
541.174	556.628
549.025	559.74
556.865	565.009
564.695	558.414
572.515	560.69
580.325	577.654
588.125	563.161
595.915	561.155
603.695	543.884
611.464	537.314
619.224	545.289
626.973	542.665
634.713	535.742
642.442	524.942
650.162	516.486
657.872	529.921
665.572	534.162
673.262	566.64
680.942	574.707
688.611	515.121
696.272	509.013
703.922	505.332
711.564	508.518
719.194	510.299
726.815	505.8
734.427	488.465
742.028	536.735
749.62	515.888
757.203	491.552
764.776	485.614
772.338	496.072
779.892	503.385
787.435	489.445
794.97	501.61
802.494	577.694
810.009	551.796
817.515	483.186
825.011	488.323
832.497	530.511
839.974	574.627
847.442	502.9
854.9	466.508
862.349	469.84
869.788	457.167
877.217	448.677
884.637	457.205
892.049	461.479
899.451	452.87
906.842	439.436
914.226	433.175
921.599	437.262
928.964	434.064
936.319	442.876
943.665	441.339
951.002	441.206
958.329	424.792
965.648	435.929
972.957	454.583
980.257	435.049
987.548	446.85
994.829	466.902
1002.1	444.843
1009.37	414.844
1016.62	412.693
1023.87	419.894
1031.1	448.41
1038.33	434.063
1045.55	422.449
1052.76	413.602
1059.96	391.752
1067.15	391.269
1074.33	408.153
1081.5	405.621
1088.67	377.856
1095.83	385.694
1102.97	420.119
1110.11	402.777
1117.24	394.689
1124.36	408.314
1131.47	391.418
1138.57	424.497
1145.67	435.312
1152.75	452.074
1159.83	438.574
1166.9	422.936
1173.96	393.54
1181.01	383.303
1188.05	400.927
1195.08	390.027
1202.11	385.282
1209.12	406.41
1216.13	404.305
1223.13	376.201
1230.12	356.199
1237.1	356.798
1244.07	358.031
1251.04	354.332
1257.99	353.546
1264.94	368.597
1271.88	384.957
1278.81	361.595
1285.73	371.764
1292.64	373.438
1299.55	367.819
1306.44	372.979
1313.33	362.207
1320.21	397.438
1327.08	429.475
1333.95	425.615
1340.8	422.989
1347.65	375.556
1354.49	370.07
1361.32	367.712
1368.14	369.673
1374.95	365.645
1381.76	338.617
1388.55	331.708
1395.34	321.537
1402.12	322.617
1408.89	337.654
1415.66	334.396
1422.41	330.627
1429.16	343.884
1435.9	355.291
1442.63	387.155
1449.35	423.61
1456.07	413.381
1462.78	373.729
1469.48	339.608
1476.17	320.435
1482.85	309.89
1489.53	304.721
1496.19	315.205
1502.85	296.39
1509.5	295.015
1516.15	313.362
1522.78	401.352
1529.41	384.374
1536.03	320.059
1542.64	295.587
1549.24	288.933
1555.84	290.251
1562.42	288.856
1569.01	276.402
1575.58	281.352
1582.14	280.198
1588.7	256.1
1595.25	278.555
1601.79	288.176
1608.32	277.7
1614.85	265.853
1621.36	267.543
1627.87	259.704
1634.38	267.695
1640.87	258.188
1647.36	251.158
1653.84	242.466
1660.31	240.151
1666.77	247.737
1673.23	249.383
1679.68	245.607
1686.12	240.025
1692.55	250.439
1698.98	232.77
1705.39	225.605
1711.81	220.85
1718.21	234.724
1724.6	238.909
1730.99	221.202
1737.37	219.56
1743.75	222.535
1750.11	216.775
1756.47	222.919
1762.82	225.942
1769.16	225.067
1775.5	229.438
1781.83	225.176
1788.15	217.734
1794.46	221.92
1800.77	201.568
1807.07	201.33
1813.36	216.501
1819.65	207.244
1825.92	211.243
1832.19	211.476
1838.46	213.783
1844.71	190.993
1850.96	207.307
1857.2	211.882
1863.43	194.063
1869.66	195.399
1875.88	193.563
1882.09	191.795
1888.29	188.501
1894.49	189.238
1900.68	192.324
1906.86	187.316
1913.04	186.897
1919.21	189.396
1925.37	185.077
1931.53	184.975
1937.67	178.692
1943.81	170.038
1949.95	178.15
1956.07	174.46
1962.19	176.925
1968.31	176.251
1974.41	171.444
1980.51	167.752
1986.6	171.487
1992.68	167.04
1998.76	167.526